LabVIEW Measurement	
Writer_Version	2
Reader_Version	2
Separator	Tab
Decimal_Separator	.
Multi_Headings	No
X_Columns	One
Time_Pref	Absolute
Operator	AlunosGDS-JT
Date	2019/10/09
Time	15:05:07.5680753937497769649
***End_of_Header***	
	
Channels	2		
Samples	2048	2048	
Date	2019/10/09	2019/10/09	
Time	15:05:07.5680753937497769649	15:05:07.5680753937497769649	
Y_Unit_Label	g	Newtons	
X_Dimension	Time	Time	
X0	0.0000000000000000E+0	0.0000000000000000E+0	
Delta_X	0.000605	0.000605	
***End_of_Header***			
X_Value	Acceleration (Trigger)	Force (Trigger)	Comment
0.000000	-4.089806	-3.613428
0.000605	-5.289609	-9.927106
0.001211	-6.482730	-16.017377
0.001816	-7.705011	-21.924910
0.002422	-8.912713	-28.089198
0.003027	-10.069991	-34.098402
0.003633	-11.213298	-40.031421
0.004238	-12.316510	-45.901539
0.004844	-13.373552	-51.635010
0.005449	-14.423912	-57.263555
0.006055	-15.497964	-62.750303
0.006660	-16.511874	-68.143513
0.007266	-17.400640	-73.420952
0.007871	-18.367165	-78.601329
0.008477	-19.218874	-83.422466
0.009082	-20.116752	-88.206188
0.009687	-20.932011	-92.977437
0.010293	-21.669511	-97.221079
0.010898	-22.397898	-101.375792
0.011504	-23.117173	-105.379759
0.012109	-23.714948	-109.099317
0.012715	-24.236787	-112.612007
0.013320	-24.804188	-115.901019
0.013926	-25.232472	-118.947374
0.014531	-25.682626	-121.763545
0.015137	-26.093901	-124.324316
0.015742	-26.379424	-126.544013
0.016348	-26.632142	-128.719516
0.016953	-26.809530	-130.411876
0.017559	-26.993602	-131.699446
0.018164	-27.026406	-133.077844
0.018770	-27.045846	-134.010512
0.019375	-27.034304	-134.570113
0.019980	-27.020331	-134.909832
0.020586	-26.895187	-135.025874
0.021191	-26.679526	-134.797858
0.021797	-26.457790	-134.320408
0.022402	-26.165585	-133.527368
0.023008	-25.867912	-132.437447
0.023613	-25.479723	-131.191630
0.024219	-24.997371	-129.537228
0.024824	-24.479785	-127.593807
0.025430	-23.894159	-125.657978
0.026035	-23.238672	-123.078499
0.026641	-22.616596	-120.296490
0.027246	-21.967184	-117.484386
0.027852	-21.192019	-114.333105
0.028457	-20.429612	-110.907718
0.029062	-19.561501	-107.214459
0.029668	-18.669698	-103.391603
0.030273	-17.806447	-99.330428
0.030879	-16.828987	-95.025241
0.031484	-15.862461	-90.542468
0.032090	-14.778082	-85.885361
0.032695	-13.739264	-81.052837
0.033301	-12.689512	-75.950815
0.033906	-11.554103	-70.867772
0.034512	-10.375562	-65.568643
0.035117	-9.210993	-59.831918
0.035723	-8.122361	-54.204999
0.036328	-6.888537	-48.663213
0.036934	-5.679014	-42.813972
0.037539	-4.499258	-36.956869
0.038145	-3.270294	-30.976132
0.038750	-2.074743	-24.960149
0.039355	-0.788068	-18.895906
0.039961	0.441503	-12.751139
0.040566	1.675327	-6.622640
0.041172	2.876345	-0.523964
0.041777	4.113814	5.696718
0.042383	5.333665	11.907097
0.042988	6.567488	17.835235
0.043594	7.773367	23.977833
0.044199	8.978030	30.218307
0.044805	10.095822	36.067819
0.045410	11.242166	41.979961
0.046016	12.372715	47.821882
0.046621	13.448590	53.568096
0.047227	14.557269	59.158684
0.047832	15.581507	64.631604
0.048438	16.534060	69.962727
0.049043	17.505445	75.186754
0.049648	18.388136	80.123662
0.050254	19.284799	84.946696
0.050859	20.142583	89.859202
0.051465	20.948729	94.222681
0.052070	21.692911	98.477981
0.052676	22.428588	102.682580
0.053281	23.096226	106.576742
0.053887	23.692787	110.198153
0.054492	24.298460	113.685357
0.055098	24.827588	116.912281
0.055703	25.268023	119.888416
0.056309	25.674437	122.538116
0.056914	26.043187	124.928892
0.057520	26.359084	127.214743
0.058125	26.537081	129.181481
0.058730	26.716292	130.651789
0.059336	26.855408	132.162495
0.059941	26.973870	133.378760
0.060547	26.949570	134.109170
0.061152	26.921625	134.705101
0.061758	26.855408	135.044007
0.062363	26.740592	135.091725
0.062969	26.571708	134.741974
0.063574	26.272213	134.186440
0.064180	25.987297	133.360866
0.064785	25.538966	132.255762
0.065391	25.128906	130.822055
0.065996	24.661742	129.059746
0.066602	24.108921	127.318042
0.067207	23.529370	125.031377
0.067812	22.940100	122.533236
0.068418	22.251200	120.062749
0.069023	21.562907	117.078752
0.069629	20.757368	113.850743
0.070234	19.956689	110.428066
0.070840	19.108626	106.790931
0.071445	18.252664	102.958856
0.072051	17.318336	98.859453
0.072656	16.334801	94.586259
0.073262	15.322713	90.111619
0.073867	14.277214	85.433907
0.074473	13.229891	80.517877
0.075078	12.146727	75.492312
0.075684	11.044123	70.416047
0.076289	9.862544	64.901644
0.076895	8.737462	59.467495
0.077500	7.576538	54.056391
0.078105	6.367015	48.347321
0.078711	5.150809	42.523024
0.079316	3.974697	36.602477
0.079922	2.734191	30.744560
0.080527	1.515555	24.732102
0.081133	0.310284	18.654845
0.081738	-0.944801	12.516856
0.082344	-2.146428	6.365853
0.082949	-3.392401	0.203463
0.083555	-4.638374	-6.068461
0.084160	-5.816915	-11.958913
0.084766	-7.023401	-18.045931
0.085371	-8.215308	-24.299961
0.085977	-9.355577	-30.308894
0.086582	-10.515286	-36.229712
0.087188	-11.674995	-42.139957
0.087793	-12.770917	-47.957476
0.088398	-13.806089	-53.620184
0.089004	-14.863131	-59.214568
0.089609	-15.935361	-64.749304
0.090215	-16.868474	-70.031082
0.090820	-17.792474	-75.328856
0.091426	-18.705540	-80.253020
0.092031	-19.575474	-85.278042
0.092637	-20.458772	-89.960092
0.093242	-21.158000	-94.294018
0.093848	-21.943491	-98.718229
0.094453	-22.650616	-102.834984
0.095059	-23.320076	-106.721826
0.095664	-23.861962	-110.382549
0.096270	-24.447588	-113.822307
0.096875	-24.883162	-117.012629
0.097480	-25.408646	-119.951891
0.098086	-25.840575	-122.651207
0.098691	-26.112126	-125.094039
0.099297	-26.470548	-127.417034
0.099902	-26.622422	-129.159009
0.100508	-26.804670	-130.849742
0.101113	-26.895187	-132.374004
0.101719	-27.009396	-133.233469
0.102324	-26.965657	-134.032202
0.102930	-26.927992	-134.652264
0.103535	-26.883645	-134.934776
0.104141	-26.748781	-134.881364
0.104746	-26.529475	-134.571740
0.105352	-26.310777	-133.990178
0.105957	-25.942027	-133.087333
0.106563	-25.621269	-131.916346
0.107168	-25.185695	-130.469083
0.107773	-24.714886	-128.852096
0.108379	-24.160242	-126.872345
0.108984	-23.578869	-124.435206
0.109590	-22.956794	-122.174841
0.110195	-22.312849	-119.363279
0.110801	-21.626379	-116.191122
0.111406	-20.814157	-112.942507
0.112012	-20.063900	-109.520373
0.112617	-19.207332	-105.804340
0.113223	-18.296696	-101.826130
0.113828	-17.387275	-97.726184
0.114434	-16.432900	-93.330713
0.115039	-15.379502	-88.822454
0.115645	-14.425127	-84.010264
0.116250	-13.332850	-79.183976
0.116855	-12.260013	-74.210738
0.117461	-11.110631	-68.716670
0.118066	-9.957605	-63.311531
0.118672	-8.833738	-57.922117
0.119277	-7.636364	-52.218741
0.119883	-6.432308	-46.451379
0.120488	-5.252552	-40.646331
0.121094	-4.050318	-34.774858
0.121699	-2.828037	-28.714953
0.122305	-1.612439	-22.685956
0.122910	-0.373148	-16.557728
0.123516	0.871003	-10.453630
0.124121	2.073236	-4.350345
0.124727	3.296125	1.909108
0.125332	4.514761	7.878457
0.125938	5.737042	14.102934
0.126543	6.907078	20.409563
0.127148	8.131182	26.314656
0.127754	9.308508	32.273431
0.128359	10.468824	38.310290
0.128965	11.550166	44.176070
0.129570	12.667351	49.945330
0.130176	13.743225	55.595023
0.130781	14.829427	61.189136
0.131387	15.816607	66.583159
0.131992	16.806218	71.868461
0.132598	17.783678	76.972652
0.133203	18.691276	82.022347
0.133809	19.503498	86.760520
0.134414	20.358244	91.289384
0.135020	21.183223	95.958149
0.135625	21.917685	100.224294
0.136230	22.588967	104.176476
0.136836	23.297915	107.976016
0.137441	23.898728	111.624268
0.138047	24.407201	114.956389
0.138652	24.929648	118.062392
0.139258	25.367044	120.897812
0.139863	25.745514	123.501421
0.140469	26.087534	125.855596
0.141074	26.353010	127.924276
0.141680	26.575353	129.774972
0.142285	26.755779	131.455131
0.142891	26.899755	132.561048
0.143496	26.947140	133.538181
0.144102	26.962935	134.491726
0.144707	26.908868	134.965110
0.145313	26.752134	135.116940
0.145918	26.633065	135.005236
0.146523	26.441704	134.667415
0.147129	26.118516	133.972523
0.147734	25.805049	133.044192
0.148340	25.466066	131.891371
0.148945	24.953947	130.391781
0.149551	24.505008	128.562503
0.150156	23.933962	126.425500
0.150762	23.337402	124.384474
0.151367	22.657614	121.821262
0.151973	21.983902	118.890948
0.152578	21.311404	115.966328
0.153184	20.510118	112.743199
0.153789	19.665091	109.208819
0.154395	18.839505	105.472994
0.155000	17.939804	101.544670
0.155605	16.970849	97.391313
0.156211	16.043811	93.010483
0.156816	15.012891	88.475111
0.157422	13.938839	83.822072
0.158027	12.867824	78.908752
0.158633	11.766435	73.637278
0.159238	10.663830	68.496756
0.159844	9.473747	63.222299
0.160449	8.283055	57.613003
0.161055	7.133066	52.019432
0.161660	6.006162	46.352658
0.162266	4.701869	40.512635
0.162871	3.521506	34.565247
0.163477	2.298010	28.624366
0.164082	1.059326	22.611636
0.164687	-0.111318	16.527059
0.165293	-1.374301	10.330507
0.165898	-2.594759	4.130702
0.166504	-3.837695	-1.944115
0.167109	-5.091566	-8.176184
0.167715	-6.284079	-14.365415
0.168320	-7.455938	-20.194864
0.168926	-8.665462	-26.284864
0.169531	-9.847648	-32.399807
0.170137	-10.969085	-38.344213
0.170742	-12.061362	-44.144380
0.171348	-13.163359	-49.979523
0.171953	-14.219186	-55.598308
0.172559	-15.281088	-61.184559
0.173164	-16.255511	-66.565839
0.173770	-17.218999	-71.921362
0.174375	-18.147252	-77.128852
0.174980	-19.053028	-81.987946
0.175586	-19.952729	-86.773294
0.176191	-20.766165	-91.636455
0.176797	-21.497590	-95.980142
0.177402	-22.304951	-100.115334
0.178008	-22.985346	-104.195487
0.178613	-23.612281	-108.052234
0.179219	-24.185757	-111.656021
0.179824	-24.676006	-114.932562
0.180430	-25.124945	-118.078420
0.181035	-25.607904	-120.891608
0.181641	-26.000954	-123.520974
0.182246	-26.305917	-125.848036
0.182852	-26.559242	-128.011068
0.183457	-26.794343	-129.853630
0.184062	-26.925562	-131.186479
0.184668	-27.005144	-132.643231
0.185273	-27.045846	-133.650459
0.185879	-27.013649	-134.245577
0.186484	-27.005751	-134.666362
0.187090	-26.951077	-134.875671
0.187695	-26.734808	-134.749598
0.188301	-26.522185	-134.316883
0.188906	-26.254887	-133.622533
0.189512	-25.934129	-132.638080
0.190117	-25.483975	-131.438896
0.190723	-25.036858	-129.811064
0.191328	-24.543572	-128.005103
0.191934	-23.968881	-126.098013
0.192539	-23.414845	-123.594991
0.193145	-22.738703	-120.920348
0.193750	-22.061953	-118.206662
0.194355	-21.322631	-115.055652
0.194961	-20.515269	-111.649514
0.195566	-19.746180	-108.079617
0.196172	-18.780262	-104.273571
0.196777	-17.980191	-100.288040
0.197383	-16.896419	-96.011050
0.197988	-15.943866	-91.581959
0.198594	-15.094587	-86.983687
0.199199	-13.943990	-82.217046
0.199805	-12.902743	-77.184432
0.200410	-11.771586	-72.136364
0.201016	-10.658655	-66.838861
0.201621	-9.522031	-61.175883
0.202227	-8.335592	-55.698625
0.202832	-7.062889	-50.075772
0.203437	-5.951172	-44.297024
0.204043	-4.707629	-38.393829
0.204648	-3.552780	-32.470570
0.205254	-2.260029	-26.419070
0.205859	-1.070553	-20.334764
0.206465	0.191823	-14.227955
0.207070	1.362467	-8.149885
0.207676	2.627272	-1.982343
0.208281	3.858058	4.252437
0.208887	4.983747	10.411303
0.209492	6.250983	16.387972
0.210098	7.479946	22.637393
0.210703	8.584981	28.726037
0.211309	9.794504	34.693218
0.211914	10.984588	40.599124
0.212520	12.099342	46.437249
0.213125	13.137552	52.146590
0.213730	14.220109	57.806857
0.214336	15.265609	63.312041
0.214941	16.219984	68.699828
0.215547	17.198052	73.911927
0.216152	18.119623	78.901703
0.216758	19.055773	83.835899
0.217363	19.893510	88.738373
0.217969	20.669889	93.100496
0.218574	21.464493	97.517386
0.219180	22.183160	101.792749
0.219785	22.893323	105.717548
0.220391	23.502033	109.413789
0.220996	24.090089	112.946814
0.221602	24.675107	116.247484
0.222207	25.090634	119.277030
0.222812	25.543825	121.966314
0.223418	25.898603	124.480994
0.224023	26.201136	126.806430
0.224629	26.458106	128.801364
0.225234	26.623345	130.419435
0.225840	26.799519	132.050521
0.226445	26.884568	133.163758
0.227051	26.920410	133.916942
0.227656	26.932560	134.730045
0.228262	26.852371	135.138087
0.228867	26.747274	135.207766
0.229473	26.576568	134.991951
0.230078	26.354832	134.496335
0.230684	26.013420	133.753725
0.231289	25.689017	132.751649
0.231895	25.255265	131.425308
0.232500	24.787494	129.837060
0.233105	24.260795	128.012121
0.233711	23.704937	125.738199
0.234316	23.054916	123.474580
0.234922	22.415831	121.006262
0.235527	21.703846	117.986748
0.236133	20.937795	114.820555
0.236738	20.149265	111.583328
0.237344	19.311529	108.024005
0.237949	18.444025	104.159396
0.238555	17.572877	100.138890
0.239160	16.642194	95.937001
0.239766	15.615526	91.497065
0.240371	14.582784	86.856226
0.240977	13.553079	82.064642
0.241582	12.444400	77.165693
0.242187	11.408620	71.836197
0.242793	10.254378	66.523783
0.243398	9.042425	61.371061
0.244004	7.886968	55.773694
0.244609	6.682305	50.065980
0.245215	5.526848	44.302143
0.245820	4.300922	38.433110
0.246426	3.132708	32.525848
0.247031	1.825986	26.532640
0.247637	0.615855	20.485206
0.248242	-0.597921	14.359147
0.248848	-1.788005	8.204349
0.249453	-3.073466	1.934593
0.250059	-4.273877	-4.092234
0.250664	-5.483400	-10.242966
0.251270	-6.687456	-16.532785
0.251875	-7.907915	-22.382297
0.252480	-9.073091	-28.410480
0.253086	-10.266213	-34.502107
0.253691	-11.315965	-40.363549
0.254297	-12.382727	-46.202758
0.254902	-13.543043	-51.971746
0.255508	-14.585506	-57.559623
0.256113	-15.621893	-63.082160
0.256719	-16.588418	-68.466693
0.257324	-17.576814	-73.701566
0.257930	-18.448570	-78.879503
0.258535	-19.377430	-83.684643
0.259141	-20.207269	-88.331447
0.259746	-21.031641	-93.140112
0.260352	-21.767925	-97.454788
0.260957	-22.523650	-101.485597
0.261562	-23.243532	-105.472755
0.262168	-23.773875	-109.260636
0.262773	-24.329126	-112.736724
0.263379	-24.861900	-115.983169
0.263984	-25.322381	-119.029796
0.264590	-25.737301	-121.805298
0.265195	-26.173483	-124.338415
0.265801	-26.402508	-126.549436
0.266406	-26.684386	-128.639264
0.267012	-26.797380	-130.346806
0.267617	-26.912805	-131.595063
0.268223	-27.099913	-132.902968
0.268828	-27.049491	-133.834823
0.269434	-26.983274	-134.374904
0.270039	-26.953507	-134.669345
0.270645	-26.779156	-134.750682
0.271250	-26.657656	-134.518600
0.271855	-26.369096	-133.989636
0.272461	-26.072638	-133.171111
0.273066	-25.787115	-132.121316
0.273672	-25.305371	-130.762982
0.274277	-24.829095	-129.138133
0.274883	-24.375903	-127.202303
0.275488	-23.774483	-125.204658
0.276094	-23.145725	-122.599151
0.276699	-22.516360	-119.820124
0.277305	-21.796477	-117.033777
0.277910	-21.062623	-113.794652
0.278516	-20.220027	-110.275184
0.279121	-19.378645	-106.624763
0.279727	-18.525114	-102.799738
0.280332	-17.594431	-98.696539
0.280938	-16.683188	-94.428767
0.281543	-15.682035	-89.887431
0.282148	-14.614058	-85.182878
0.282754	-13.606223	-80.395360
0.283359	-12.516376	-75.253754
0.283965	-11.396762	-70.163391
0.284570	-10.231585	-64.835793
0.285176	-9.048184	-59.068160
0.285781	-7.915812	-53.549962
0.286387	-6.731196	-47.899998
0.286992	-5.516813	-42.041810
0.287598	-4.278737	-36.141326
0.288203	-3.060708	-30.180381
0.288809	-1.853007	-24.119663
0.289414	-0.592454	-18.072230
0.290020	0.632257	-11.930445
0.290625	1.776171	-5.845597
0.291230	3.080464	0.252265
0.291836	4.274800	6.524461
0.292441	5.443621	12.710981
0.293047	6.712680	18.637764
0.293652	7.911876	24.834858
0.294258	9.083735	30.961188
0.294863	10.214284	36.906407
0.295469	11.383713	42.785201
0.296074	12.448652	48.575608
0.296680	13.541537	54.294710
0.297285	14.597364	59.875266
0.297891	15.624639	65.327310
0.298496	16.614249	70.722960
0.299102	17.537035	75.870802
0.299707	18.440380	80.698446
0.300312	19.293912	85.619356
0.300918	20.169920	90.470046
0.301523	20.985179	94.822408
0.302129	21.760951	99.054391
0.302734	22.494198	103.300202
0.303340	23.119918	107.093506
0.303945	23.749891	110.731726
0.304551	24.328227	114.212423
0.305156	24.853711	117.392985
0.305762	25.300827	120.318961
0.306367	25.711494	122.958359
0.306973	26.021317	125.373265
0.307578	26.374879	127.620888
0.308184	26.605120	129.539636
0.308789	26.751527	130.978494
0.309395	26.904615	132.507095
0.310000	26.999992	133.633346
0.310605	26.997562	134.335830
0.311211	26.966580	134.955349
0.311816	26.884568	135.251960
0.312422	26.760639	135.260636
0.313027	26.541941	134.865065
0.313633	26.268568	134.270489
0.314238	26.002485	133.461182
0.314844	25.562658	132.330321
0.315449	25.165963	130.849710
0.316055	24.670854	129.117767
0.316660	24.126538	127.311264
0.317266	23.537875	125.024057
0.317871	22.960147	122.475757
0.318477	22.261527	120.054073
0.319082	21.525243	117.022087
0.319688	20.756761	113.725483
0.320293	19.898370	110.354592
0.320898	19.114700	106.680583
0.321504	18.258739	102.834952
0.322109	17.298896	98.708165
0.322715	16.326296	94.402436
0.323320	15.334256	89.947860
0.323926	14.266279	85.221888
0.324531	13.197087	80.238889
0.325137	12.116352	75.281106
0.325742	10.903791	70.091782
0.326348	9.778709	64.559214
0.326953	8.693115	59.152719
0.327559	7.480554	53.752189
0.328164	6.287433	47.997028
0.328770	5.116789	42.206892
0.329375	3.874461	36.307764
0.329980	2.643067	30.337602
0.330586	1.442656	24.334091
0.331191	0.231310	18.277168
0.331797	-1.054151	12.137010
0.332402	-2.266712	6.020169
0.333008	-3.509647	-0.290255
0.333613	-4.692441	-6.415230
0.334219	-5.951172	-12.352857
0.334824	-7.184995	-18.657859
0.335430	-8.381761	-24.735116
0.336035	-9.549368	-30.653765
0.336641	-10.648327	-36.616065
0.337246	-11.744857	-42.534714
0.337852	-12.857181	-48.329459
0.338457	-13.928803	-54.011145
0.339062	-14.984023	-59.577875
0.339668	-15.958446	-65.068960
0.340273	-16.938943	-70.438040
0.340879	-17.943133	-75.589949
0.341484	-18.839797	-80.589485
0.342090	-19.692113	-85.545913
0.342695	-20.476997	-89.999948
0.343301	-21.321416	-94.651632
0.343906	-22.028541	-99.015652
0.344512	-22.736273	-103.029651
0.345117	-23.450080	-106.926254
0.345723	-23.938507	-110.504555
0.346328	-24.473103	-113.956242
0.346934	-25.004661	-117.117283
0.347539	-25.468180	-120.010182
0.348145	-25.848472	-122.742033
0.348750	-26.164370	-125.212791
0.349355	-26.478445	-127.315905
0.349961	-26.737846	-129.231671
0.350566	-26.822895	-130.969579
0.351172	-26.935282	-132.094204
0.351777	-27.077436	-133.147252
0.352383	-27.008181	-134.038167
0.352988	-26.992387	-134.556557
0.353594	-26.842335	-134.751224
0.354199	-26.701396	-134.703778
0.354805	-26.471763	-134.383037
0.355410	-26.212970	-133.726102
0.356016	-25.968149	-132.823258
0.356621	-25.513742	-131.601570
0.357227	-25.160788	-130.206092
0.357832	-24.623762	-128.485265
0.358438	-24.063651	-126.338229
0.359043	-23.478632	-124.282563
0.359648	-22.826790	-121.722876
0.360254	-22.173125	-118.751622
0.360859	-21.467215	-115.819952
0.361465	-20.702378	-112.545039
0.362070	-19.877399	-108.974328
0.362676	-19.080365	-105.274021
0.363281	-18.221974	-101.325634
0.363887	-17.234186	-97.180410
0.364492	-16.268268	-92.789548
0.365098	-15.290200	-88.198054
0.365703	-14.258066	-83.478860
0.366309	-13.168826	-78.660705
0.366914	-12.123934	-73.384350
0.367520	-10.985487	-68.155442
0.368125	-9.754094	-62.884239
0.368730	-8.633872	-57.160257
0.369336	-7.485098	-51.456610
0.369941	-6.290762	-45.791462
0.370547	-5.086706	-39.983432
0.371152	-3.838303	-33.989953
0.371758	-2.630601	-27.957973
0.372363	-1.463603	-21.926537
0.372969	-0.228564	-15.878019
0.373574	0.996147	-9.772836
0.374180	2.214175	-3.564355
0.374785	3.443139	2.501786
0.375391	4.723132	8.720299
0.375996	5.933870	15.029638
0.376602	7.100869	20.881591
0.377207	8.298243	26.943936
0.377812	9.449447	33.096023
0.378418	10.668690	39.071608
0.379023	11.737882	44.899430
0.379629	12.829552	50.619887
0.380234	13.932156	56.348478
0.380840	14.930271	61.811638
0.381445	15.979416	67.296759
0.382051	16.950194	72.560913
0.382656	17.882092	77.683812
0.383262	18.761746	82.500068
0.383867	19.641399	87.274843
0.384473	20.496753	92.133395
0.385078	21.246402	96.449155
0.385684	22.020959	100.545034
0.386289	22.743879	104.647691
0.386895	23.368384	108.465667
0.387500	23.960085	112.043155
0.388105	24.489821	115.342199
0.388711	24.975817	118.425156
0.389316	25.425364	121.271151
0.389922	25.848181	123.840327
0.390527	26.151321	126.141632
0.391133	26.450816	128.318220
0.391738	26.661617	130.177050
0.392344	26.834146	131.475195
0.392949	26.934383	132.920831
0.393555	27.003030	133.983368
0.394160	27.005460	134.620510
0.394766	26.964150	135.109077
0.395371	26.888821	135.299135
0.395977	26.703534	135.147034
0.396582	26.445956	134.736552
0.397187	26.220575	134.074466
0.397793	25.878556	133.119294
0.398398	25.452094	131.851244
0.399004	24.948480	130.282789
0.399609	24.530523	128.474930
0.400215	23.928495	126.542354
0.400820	23.350767	124.145342
0.401426	22.692242	121.552578
0.402031	22.013669	118.980148
0.402637	21.307152	115.834019
0.403242	20.516800	112.539313
0.403848	19.749533	109.045873
0.404453	18.827963	105.310590
0.405059	17.970179	101.354070
0.405664	17.012766	97.161671
0.406270	16.051101	92.812291
0.406875	14.995273	88.239233
0.407480	13.968606	83.492113
0.408086	12.886656	78.479291
0.408691	11.800454	73.494666
0.409297	10.671120	68.148903
0.409902	9.538749	62.613895
0.410508	8.341375	57.292534
0.411113	7.151291	51.719297
0.411719	5.947843	45.941091
0.412324	4.734067	40.072058
0.412930	3.553703	34.175912
0.413535	2.294365	28.223372
0.414141	1.091524	22.133644
0.414746	-0.083373	16.075637
0.415352	-1.334206	9.902131
0.415957	-2.590507	3.786374
0.416563	-3.861995	-2.518628
0.417168	-5.072126	-8.531628
0.417773	-6.333894	-14.580688
0.418379	-7.458368	-20.837971
0.418984	-8.602890	-26.851785
0.419590	-9.818488	-32.760674
0.420195	-11.011002	-38.778012
0.420801	-12.122719	-44.666295
0.421406	-13.219248	-50.400308
0.422012	-14.269608	-56.006893
0.422617	-15.315715	-61.566844
0.423223	-16.319905	-67.000452
0.423828	-17.232971	-72.322084
0.424434	-18.246274	-77.429258
0.425039	-19.090692	-82.410087
0.425645	-19.980066	-87.274604
0.426250	-20.754623	-91.697187
0.426855	-21.561377	-96.248284
0.427461	-22.315279	-100.578143
0.428066	-22.979879	-104.507009
0.428672	-23.630506	-108.264253
0.429277	-24.112250	-111.823305
0.429883	-24.624977	-115.137803
0.430488	-25.182657	-118.261158
0.431094	-25.635849	-121.070551
0.431699	-25.988196	-123.676871
0.432305	-26.359376	-126.080932
0.432910	-26.604804	-128.118162
0.433516	-26.772473	-129.824620
0.434121	-26.920095	-131.527011
0.434727	-26.984489	-132.688509
0.435332	-27.081081	-133.437626
0.435937	-27.067716	-134.305767
0.436543	-26.972339	-134.691848
0.437148	-26.878785	-134.804907
0.437754	-26.706256	-134.725739
0.438359	-26.478445	-134.259133
0.438965	-26.250634	-133.551769
0.439570	-25.906792	-132.484623
0.440176	-25.490050	-131.197595
0.440781	-25.058121	-129.701801
0.441387	-24.526562	-127.888520
0.441992	-23.976779	-125.620292
0.442598	-23.370498	-123.427165
0.443203	-22.682206	-120.782887
0.443809	-21.971436	-117.721078
0.444414	-21.258844	-114.667402
0.445020	-20.509194	-111.323623
0.445625	-19.661131	-107.710346
0.446230	-18.785730	-103.828656
0.446836	-17.886636	-99.867797
0.447441	-16.987543	-95.626867
0.448047	-16.012513	-91.179611
0.448652	-14.996780	-86.501085
0.449258	-13.965253	-81.724413
0.449863	-12.845031	-76.844442
0.450469	-11.781914	-71.507084
0.451074	-10.633140	-66.273838
0.451680	-9.452776	-60.937022
0.452285	-8.277880	-55.108115
0.452891	-7.132143	-49.444594
0.453496	-5.870983	-43.698923
0.454102	-4.669356	-37.811182
0.454707	-3.426421	-31.862980
0.455313	-2.213860	-25.802804
0.455918	-1.017701	-19.746153
0.456523	0.182103	-13.676487
0.457129	1.503406	-7.488069
0.457734	2.686199	-1.312665
0.458340	3.963762	4.737479
0.458945	5.195156	11.002354
0.459551	6.390707	17.249064
0.460156	7.583221	23.093425
0.460762	8.773912	29.212435
0.461367	9.960958	35.296199
0.461973	11.070245	41.177704
0.462578	12.207476	47.026674
0.463184	13.245079	52.700768
0.463789	14.322776	58.362934
0.464395	15.363416	63.865406
0.465000	16.349381	69.210627
0.465605	17.305579	74.443060
0.466211	18.247804	79.545353
0.466816	19.181525	84.232825
0.467422	19.996176	89.036881
0.468027	20.789566	93.816807
0.468633	21.626087	97.990499
0.469238	22.361156	102.113219
0.469844	23.009962	106.122880
0.470449	23.676384	109.865212
0.471055	24.259580	113.292497
0.471660	24.809971	116.566597
0.472266	25.253443	119.555746
0.472871	25.658035	122.274583
0.473477	25.962390	124.772996
0.474082	26.318990	126.944161
0.474687	26.575353	129.031549
0.475293	26.738162	130.747496
0.475898	26.879101	132.017715
0.476504	27.028545	133.338362
0.477109	27.067424	134.295974
0.477715	27.021255	134.813822
0.478320	26.947140	135.164115
0.478926	26.792229	135.253315
0.479531	26.635495	135.011201
0.480137	26.410722	134.506096
0.480742	26.062019	133.730137
0.481348	25.723644	132.742973
0.481953	25.318445	131.373252
0.482559	24.817868	129.719934
0.483164	24.328834	127.893097
0.483770	23.765079	125.776699
0.484375	23.108376	123.214300
0.484980	22.464431	120.733240
0.485586	21.711744	117.932794
0.486191	20.982142	114.719426
0.486797	20.169920	111.351246
0.487402	19.363166	107.731190
0.488008	18.450100	103.947647
0.488613	17.562549	99.888370
0.489219	16.596024	95.599451
0.489824	15.608236	91.151382
0.490430	14.559699	86.520574
0.491035	13.533032	81.663649
0.491641	12.427997	76.635373
0.492246	11.336935	71.605470
0.492852	10.183909	66.125772
0.493457	9.053967	60.653394
0.494063	7.908231	55.306275
0.494668	6.655575	49.629741
0.495273	5.499511	43.842858
0.495879	4.322792	37.989279
0.496484	3.063454	32.070630
0.497090	1.847855	26.028077
0.497695	0.616462	20.017517
0.498301	-0.603389	13.862718
0.498906	-1.863335	7.733676
0.499512	-3.094728	1.529262
0.500117	-4.295139	-4.708229
0.500723	-5.518635	-10.688424
0.501328	-6.750636	-16.841053
0.501934	-7.909737	-23.076376
0.502539	-9.101644	-29.008581
0.503145	-10.215183	-34.958681
0.503750	-11.393117	-40.888717
0.504355	-12.467776	-46.770764
0.504961	-13.574026	-52.460313
0.505566	-14.565458	-58.001828
0.506172	-15.603061	-63.530871
0.506777	-16.563511	-68.907813
0.507383	-17.516064	-74.150006
0.507988	-18.443102	-79.097758
0.508594	-19.289343	-84.171583
0.509199	-20.153202	-88.896742
0.509805	-20.955704	-93.294382
0.510410	-21.727830	-97.745434
0.511016	-22.455003	-101.934308
0.511621	-23.109883	-105.820608
0.512227	-23.688826	-109.519289
0.512832	-24.230104	-112.995648
0.513437	-24.765915	-116.212812
0.514043	-25.224575	-119.196809
0.514648	-25.705711	-121.983156
0.515254	-26.025254	-124.478044
0.515859	-26.277972	-126.791007
0.516465	-26.612094	-128.696200
0.517070	-26.757893	-130.387204
0.517676	-26.891542	-131.945085
0.518281	-26.925562	-132.909475
0.518887	-26.980237	-133.744268
0.519492	-26.960189	-134.453259
0.520098	-26.889720	-134.728450
0.520703	-26.696536	-134.695915
0.521309	-26.570177	-134.524293
0.521914	-26.323534	-133.968759
0.522520	-26.024646	-133.135593
0.523125	-25.707534	-132.057060
0.523730	-25.272567	-130.640434
0.524336	-24.797505	-129.019651
0.524941	-24.324874	-127.132353
0.525547	-23.761118	-124.811527
0.526152	-23.110490	-122.500733
0.526758	-22.470797	-119.829342
0.527363	-21.747270	-116.653118
0.527969	-21.019491	-113.438394
0.528574	-20.258906	-110.067774
0.529180	-19.426637	-106.369635
0.529785	-18.530582	-102.453512
0.530391	-17.590786	-98.370918
0.530996	-16.703235	-94.051633
0.531602	-15.682643	-89.523853
0.532207	-14.662658	-84.801677
0.532813	-13.644495	-79.952885
0.533418	-12.497544	-75.001608
0.534023	-11.368209	-69.605416
0.534629	-10.209715	-64.279446
0.535234	-9.088886	-58.910366
0.535840	-7.908522	-53.128635
0.536445	-6.726944	-47.429326
0.537051	-5.547187	-41.632411
0.537656	-4.296354	-35.711051
0.538262	-3.167020	-29.674463
0.538867	-1.860297	-23.627572
0.539473	-0.699373	-17.575530
0.540078	0.565432	-11.505593
0.540684	1.781031	-5.282471
0.541289	3.071959	0.906218
0.541895	4.252323	6.926539
0.542500	5.532923	13.114957
0.543105	6.743054	19.452764
0.543711	7.860239	25.302276
0.544316	9.109857	31.323682
0.544922	10.237976	37.400667
0.545527	11.369133	43.313352
0.546133	12.479634	49.075562
0.546738	13.577379	54.715495
0.547344	14.626524	60.339432
0.547949	15.661088	65.821299
0.548555	16.618501	71.075422
0.549160	17.594139	76.205098
0.549766	18.497485	81.334233
0.550371	19.399616	85.994322
0.550977	20.262259	90.704026
0.551582	21.038031	95.388787
0.552187	21.805298	99.580102
0.552793	22.515460	103.581629
0.553398	23.240810	107.476333
0.554004	23.852558	111.182606
0.554609	24.412061	114.536959
0.555215	24.893198	117.727553
0.555820	25.415644	120.620181
0.556426	25.789254	123.267983
0.557031	26.106366	125.666351
0.557637	26.439274	127.748859
0.558242	26.702319	129.769550
0.558848	26.880923	131.364033
0.559453	26.987842	132.509806
0.560059	27.067424	133.736373
0.560664	27.089902	134.645454
0.561270	27.025507	135.071933
0.561875	26.916158	135.336279
0.562480	26.767321	135.280428
0.563086	26.560165	134.972701
0.563691	26.340860	134.327967
0.564297	26.037112	133.501851
0.564902	25.674437	132.338184
0.565508	25.239470	130.983917
0.566113	24.772914	129.133492
0.566719	24.185466	127.148318
0.567324	23.615635	125.104039
0.567930	22.992344	122.435088
0.568535	22.307697	119.694833
0.569141	21.554402	116.856701
0.569746	20.835128	113.623540
0.570352	20.002251	110.121967
0.570957	19.173020	106.439011
0.571562	18.267852	102.573046
0.572168	17.374226	98.422671
0.572773	16.434430	94.079527
0.573379	15.446035	89.595398
0.573984	14.381095	84.893556
0.574590	13.288818	79.995148
0.575195	12.246356	74.802571
0.575801	11.064170	69.764535
0.576406	9.926938	64.356684
0.577012	8.758724	58.749286
0.577617	7.611165	53.247084
0.578223	6.402249	47.622605
0.578828	5.183006	41.755199
0.579434	3.987455	35.865018
0.580039	2.751809	29.903531
0.580645	1.565978	23.904901
0.581250	0.284770	17.818696
0.581855	-0.906529	11.656035
0.582461	-2.140960	5.464093
0.583066	-3.375998	-0.615333
0.583672	-4.649917	-6.943923
0.584277	-5.840608	-12.944451
0.584883	-7.058636	-18.932508
0.585488	-8.247505	-25.118757
0.586094	-9.405391	-31.172968
0.586699	-10.602765	-37.075621
0.587305	-11.677425	-42.955770
0.587910	-12.797646	-48.802029
0.588516	-13.848614	-54.457959
0.589121	-14.923881	-60.005438
0.589727	-15.912276	-65.463718
0.590332	-16.932261	-70.850691
0.590938	-17.901824	-76.015885
0.591543	-18.833114	-80.948725
0.592148	-19.733423	-85.840897
0.592754	-20.523167	-90.623805
0.593359	-21.307444	-94.940108
0.593965	-22.062560	-99.218182
0.594570	-22.817677	-103.376962
0.595176	-23.439145	-107.240216
0.595781	-23.924534	-110.813909
0.596387	-24.541142	-114.177751
0.596992	-25.052046	-117.375123
0.597598	-25.544117	-120.267480
0.598203	-25.927447	-122.937785
0.598809	-26.279187	-125.327748
0.599414	-26.555597	-127.567237
0.600020	-26.770651	-129.369402
0.600625	-26.962619	-130.884717
0.601230	-27.082903	-132.420909
0.601836	-27.084726	-133.289863
0.602441	-27.112671	-134.028406
0.603047	-27.144868	-134.561708
0.603652	-26.989349	-134.750411
0.604258	-26.846588	-134.719503
0.604863	-26.640039	-134.319052
0.605469	-26.344796	-133.699803
0.606074	-26.021609	-132.725382
0.606680	-25.654681	-131.532434
0.607285	-25.210602	-130.013052
0.607891	-24.774420	-128.383051
0.608496	-24.171785	-126.320064
0.609102	-23.591627	-123.916816
0.609707	-22.968944	-121.544205
0.610313	-22.294016	-118.744302
0.610918	-21.577172	-115.530662
0.611523	-20.787427	-112.207218
0.612129	-19.978851	-108.699408
0.612734	-19.104057	-104.987442
0.613340	-18.200104	-100.956633
0.613945	-17.288253	-96.784026
0.614551	-16.299250	-92.424072
0.615156	-15.328473	-87.775100
0.615762	-14.241663	-82.919259
0.616367	-13.169434	-78.078059
0.616973	-12.043137	-73.060899
0.617578	-10.863988	-67.554359
0.618184	-9.706102	-62.156269
0.618789	-8.538495	-56.757366
0.619395	-7.337477	-50.954758
0.620000	-6.194170	-45.213425
0.620605	-4.895952	-39.395363
0.621211	-3.717411	-33.419506
0.621816	-2.453213	-27.355535
0.622422	-1.252802	-21.287767
0.623027	-0.022016	-15.226507
0.623633	1.213630	-9.131084
0.624238	2.412826	-2.947004
0.624844	3.564030	3.261206
0.625449	4.909633	9.252516
0.626055	6.099109	15.510884
0.626660	7.281295	21.734820
0.627266	8.498109	27.636659
0.627871	9.683940	33.639899
0.628477	10.824209	39.651815
0.629082	11.917094	45.517866
0.629687	13.030025	51.220428
0.630293	14.142957	56.906452
0.630898	15.124670	62.435767
0.631504	16.175030	67.839008
0.632109	17.179220	73.089335
0.632715	18.098968	78.178072
0.633320	18.957359	83.171644
0.633926	19.861312	87.858303
0.634531	20.703909	92.387981
0.635137	21.459633	97.055390
0.635742	22.197740	101.180550
0.636348	22.849583	105.104265
0.636953	23.492921	108.899195
0.637559	24.141726	112.438997
0.638164	24.675714	115.785488
0.638770	25.148346	118.834554
0.639375	25.554153	121.655334
0.639980	25.953277	124.209056
0.640586	26.268568	126.558351
0.641191	26.514603	128.491740
0.641797	26.744844	130.364668
0.642402	26.839613	131.860734
0.643008	26.978730	132.890736
0.643613	27.077752	133.994484
0.644219	27.065602	134.845544
0.644824	26.981767	135.233252
0.645430	26.852978	135.320283
0.646035	26.697459	135.128327
0.646641	26.476331	134.738179
0.647246	26.196883	134.038406
0.647852	25.862153	133.051513
0.648457	25.480646	131.825216
0.649062	24.978855	130.304479
0.649668	24.461268	128.329065
0.650273	23.893868	126.293462
0.650879	23.296700	124.165677
0.651484	22.650324	121.407526
0.652090	21.966284	118.545536
0.652695	21.268880	115.590820
0.653301	20.438433	112.270087
0.653906	19.649904	108.737063
0.654512	18.783615	104.988766
0.655117	17.867512	100.957957
0.655723	16.900987	96.781283
0.656328	15.980024	92.418618
0.656934	14.952749	87.794860
0.657539	13.864724	83.124468
0.658145	12.825299	78.150417
0.658750	11.678955	72.840443
0.659355	10.544761	67.695854
0.659961	9.428185	62.396725
0.660566	8.238708	56.713141
0.661172	7.040120	51.107369
0.661777	5.851251	45.452525
0.662383	4.616820	39.581593
0.662988	3.460149	33.627427
0.663594	2.217820	27.674887
0.664199	0.963342	21.649144
0.664805	-0.251649	15.544233
0.665410	-1.500660	9.349037
0.666016	-2.736913	3.174717
0.666621	-3.908165	-2.917994
0.667227	-5.150493	-9.155757
0.667832	-6.316884	-15.323027
0.668438	-7.516080	-21.158441
0.669043	-8.718921	-27.285313
0.669648	-9.878630	-33.365824
0.670254	-11.026189	-39.225368
0.670859	-12.119074	-45.106602
0.671465	-13.241726	-50.848748
0.672070	-14.293300	-56.523114
0.672676	-15.301135	-62.026672
0.673281	-16.288923	-67.403885
0.673887	-17.218391	-72.730398
0.674492	-18.181272	-77.922975
0.675098	-19.085225	-82.776376
0.675703	-20.018946	-87.496655
0.676309	-20.718780	-92.320774
0.676914	-21.533432	-96.628943
0.677520	-22.263034	-100.780944
0.678125	-22.984739	-104.768644
0.678730	-23.618356	-108.594212
0.679336	-24.047856	-112.059455
0.679941	-24.643809	-115.429804
0.680547	-25.138310	-118.480769
0.681152	-25.596362	-121.285823
0.681758	-25.919549	-123.870725
0.682363	-26.284047	-126.153323
0.682969	-26.520363	-128.267552
0.683574	-26.658871	-130.064836
0.684180	-26.838690	-131.341291
0.684785	-26.907945	-132.650823
0.685391	-26.974162	-133.762704
0.685996	-26.965657	-134.293837
0.686602	-26.884252	-134.593972
0.687207	-26.789483	-134.753393
0.687813	-26.580505	-134.608071
0.688418	-26.383069	-134.125469
0.689023	-26.127920	-133.378521
0.689629	-25.758563	-132.338758
0.690234	-25.392243	-131.056610
0.690840	-24.921434	-129.449655
0.691445	-24.388661	-127.557748
0.692051	-23.843130	-125.610531
0.692656	-23.191895	-123.068467
0.693262	-22.592904	-120.292694
0.693867	-21.882742	-117.589582
0.694473	-21.138560	-114.412003
0.695078	-20.333628	-110.942964
0.695684	-19.566361	-107.344328
0.696289	-18.683063	-103.504391
0.696895	-17.757240	-99.472768
0.697500	-16.841136	-95.209606
0.698105	-15.863676	-90.743371
0.698711	-14.857056	-86.112564
0.699316	-13.786042	-81.264857
0.699922	-12.693765	-76.178289
0.700527	-11.605133	-71.142421
0.701133	-10.429021	-65.820789
0.701738	-9.266882	-60.117684
0.702344	-8.138156	-54.583218
0.702949	-6.964474	-49.001577
0.703555	-5.735511	-43.202223
0.704160	-4.531455	-37.275169
0.704766	-3.286697	-31.318020
0.705371	-2.128810	-25.304477
0.705977	-0.889519	-19.211224
0.706582	0.417811	-13.072422
0.707187	1.632802	-7.012788
0.707793	2.859336	-0.856092
0.708398	4.092551	5.443216
0.709004	5.278383	11.489023
0.709609	6.493981	17.504463
0.710215	7.703505	23.768254
0.710820	8.870504	29.821109
0.711426	10.035680	35.742741
0.712031	11.157724	41.651358
0.712637	12.311966	47.507106
0.713242	13.390878	53.229732
0.713848	14.451565	58.821405
0.714453	15.437530	64.293241
0.715059	16.468450	69.704616
0.715664	17.427078	74.912648
0.716270	18.386921	79.783129
0.716875	19.266574	84.719765
0.717480	20.115246	89.563134
0.718086	20.906205	93.887842
0.718691	21.681977	98.267046
0.719297	22.439523	102.545933
0.719902	23.096226	106.402680
0.720508	23.740171	110.075604
0.721113	24.282057	113.584227
0.721719	24.857963	116.837722
0.722324	25.308117	119.800300
0.722930	25.743084	122.519950
0.723535	26.105759	124.952751
0.724141	26.408899	127.194409
0.724746	26.638532	129.158977
0.725352	26.864521	130.761052
0.725957	26.999992	132.349300
0.726562	27.015180	133.317757
0.727168	27.074714	134.079346
0.727773	27.040694	134.845002
0.728379	26.992095	135.206140
0.728984	26.794051	135.179840
0.729590	26.692599	134.896515
0.730195	26.420442	134.373516
0.730801	26.100291	133.573156
0.731406	25.756449	132.536105
0.732012	25.319660	131.115954
0.732617	24.847636	129.497883
0.733223	24.333087	127.600011
0.733828	23.763864	125.295995
0.734434	23.172163	123.061657
0.735039	22.511208	120.541555
0.735645	21.771886	117.423351
0.736250	21.014339	114.308943
0.736855	20.248287	110.963809
0.737461	19.383821	107.345109
0.738066	18.507205	103.472366
0.738672	17.576522	99.401973
0.739277	16.616071	95.152367
0.739883	15.618564	90.681794
0.740488	14.559092	85.988086
0.741094	13.502657	81.168033
0.741699	12.404305	76.235464
0.742305	11.270111	70.862318
0.742910	10.180264	65.565086
0.743516	9.032097	60.354343
0.744121	7.818929	54.710344
0.744727	6.637958	48.958707
0.745332	5.415069	43.190261
0.745938	4.203116	37.330175
0.746543	2.968077	31.389836
0.747148	1.795611	25.365720
0.747754	0.550245	19.315304
0.748359	-0.716383	13.211206
0.748965	-1.952636	7.014383
0.749570	-3.197395	0.807800
0.750176	-4.409348	-5.259426
0.750781	-5.668079	-11.435643
0.751387	-6.849658	-17.744440
0.751992	-8.019694	-23.550030
0.752598	-9.236508	-29.586347
0.753203	-10.384067	-35.624834
0.753809	-11.510363	-41.574391
0.754414	-12.557686	-47.377270
0.755020	-13.693095	-53.041875
0.755625	-14.685135	-58.652798
0.756230	-15.750682	-64.149306
0.756836	-16.696553	-69.507811
0.757441	-17.634526	-74.738889
0.758047	-18.576144	-79.868836
0.758652	-19.432105	-84.674519
0.759258	-20.337881	-89.312918
0.759863	-21.130055	-94.052717
0.760469	-21.802552	-98.379052
0.761074	-22.608091	-102.346418
0.761680	-23.239887	-106.240308
0.762285	-23.816400	-110.018429
0.762891	-24.342491	-113.419687
0.763496	-24.880125	-116.648238
0.764102	-25.367944	-119.642809
0.764707	-25.787115	-122.403670
0.765312	-26.102406	-124.831861
0.765918	-26.387928	-127.003298
0.766523	-26.615739	-129.073605
0.767129	-26.804063	-130.779521
0.767734	-26.852663	-131.938036
0.768340	-26.964442	-133.150234
0.768945	-26.929814	-134.118149
0.769551	-26.901262	-134.531614
0.770156	-26.760931	-134.786471
0.770762	-26.603589	-134.773999
0.771367	-26.477838	-134.549237
0.771973	-26.222082	-133.976079
0.772578	-25.892212	-133.106041
0.773184	-25.533790	-131.949152
0.773789	-25.127375	-130.542287
0.774395	-24.642594	-128.856163
0.775000	-24.097670	-126.895119
0.775605	-23.475595	-124.820203
0.776211	-22.937961	-122.194091
0.776816	-22.196209	-119.355417
0.777422	-21.515207	-116.549820
0.778027	-20.729715	-113.254030
0.778633	-19.885904	-109.713685
0.779238	-19.096767	-106.046183
0.779844	-18.237769	-102.139821
0.780449	-17.271851	-98.046382
0.781055	-16.354533	-93.710558
0.781660	-15.334548	-89.112828
0.782266	-14.303628	-84.400683
0.782871	-13.229576	-79.549452
0.783477	-12.187721	-74.407303
0.784082	-11.034087	-69.316669
0.784687	-9.859191	-63.931593
0.785293	-8.737146	-58.146608
0.785898	-7.576830	-52.545717
0.786504	-6.311417	-46.931812
0.787109	-5.256805	-41.163095
0.787715	-3.949474	-35.233872
0.788320	-2.746633	-29.178305
0.788926	-1.491547	-23.143344
0.789531	-0.331231	-17.054971
0.790137	0.938435	-10.949246
0.790742	2.197165	-4.812070
0.791348	3.404866	1.252986
0.791953	4.633222	7.552294
0.792559	5.885878	13.713328
0.793164	7.034652	19.605136
0.793770	8.275158	25.796808
0.794375	9.361360	31.910395
0.794980	10.554481	37.860495
0.795586	11.714798	43.736306
0.796191	12.738428	49.467066
0.796797	13.892062	55.159055
0.797402	14.899289	60.687556
0.798008	15.877964	66.175930
0.798613	16.870005	71.453640
0.799219	17.780033	76.636186
0.799824	18.703426	81.491214
0.800430	19.608594	86.282527
0.801035	20.446331	91.104748
0.801641	21.209952	95.415358
0.802246	21.962032	99.591760
0.802852	22.663082	103.770061
0.803457	23.311279	107.615149
0.804063	23.904195	111.179081
0.804668	24.463091	114.592811
0.805273	25.014697	117.762257
0.805879	25.435691	120.611234
0.806484	25.823881	123.194237
0.807090	26.161648	125.576609
0.807695	26.440489	127.767295
0.808301	26.654327	129.615551
0.808906	26.836576	131.076099
0.809512	26.965972	132.591414
0.810117	26.965972	133.607589
0.810723	27.038264	134.242834
0.811328	26.976300	134.781287
0.811934	26.890036	135.069222
0.812539	26.721759	135.018792
0.813145	26.512781	134.609123
0.813750	26.226650	133.931583
0.814355	25.889490	133.063442
0.814961	25.537143	131.892997
0.815566	25.071801	130.387443
0.816172	24.611320	128.652246
0.816777	24.053639	126.724008
0.817383	23.529978	124.263281
0.817988	22.862340	121.919952
0.818594	22.149748	119.307938
0.819199	21.445661	116.155030
0.819805	20.668674	112.907772
0.820410	19.899585	109.479944
0.821016	19.042408	105.773942
0.821621	18.146353	101.809017
0.822227	17.172537	97.709342
0.822832	16.218769	93.366740
0.823438	15.223084	88.834893
0.824043	14.169687	84.114886
0.824648	13.128440	79.158729
0.825254	11.981488	74.201217
0.825859	10.870986	68.795806
0.826465	9.732540	63.360030
0.827070	8.577691	58.071746
0.827676	7.422842	52.520199
0.828281	6.227898	46.710542
0.828887	5.037207	40.897090
0.829492	3.787589	35.040799
0.830098	2.615122	29.035662
0.830703	1.316904	22.999616
0.831309	0.134111	16.954894
0.831914	-1.020738	10.892820
0.832520	-2.335359	4.609779
0.833125	-3.449505	-1.608462
0.833730	-4.776276	-7.628783
0.834336	-5.965144	-13.759723
0.834941	-7.085974	-20.013211
0.835547	-8.334377	-25.887666
0.836152	-9.506843	-31.838037
0.836758	-10.644075	-37.873541
0.837363	-11.749717	-43.756401
0.837969	-12.852321	-49.557111
0.838574	-13.878988	-55.201924
0.839180	-15.000425	-60.790073
0.839785	-15.954801	-66.250521
0.840391	-16.931046	-71.579745
0.840996	-17.934021	-76.671464
0.841602	-18.798487	-81.757490
0.842207	-19.641691	-86.537145
0.842812	-20.497652	-91.064383
0.843418	-21.246086	-95.741552
0.844023	-21.995128	-100.006342
0.844629	-22.694356	-103.931141
0.845234	-23.361386	-107.743152
0.845840	-23.935469	-111.378390
0.846445	-24.412353	-114.746299
0.847051	-24.935407	-117.901104
0.847656	-25.438413	-120.776380
0.848262	-25.812630	-123.439908
0.848867	-26.110303	-125.824720
0.849473	-26.390358	-127.881470
0.850078	-26.562887	-129.785578
0.850684	-26.759716	-131.411241
0.851289	-26.852055	-132.495468
0.851895	-26.915235	-133.586202
0.852500	-26.904907	-134.459766
0.853105	-26.873317	-134.858319
0.853711	-26.756071	-134.940198
0.854316	-26.577467	-134.885431
0.854922	-26.396433	-134.516702
0.855527	-26.120630	-133.871425
0.856133	-25.818705	-132.894292
0.856738	-25.477900	-131.669352
0.857344	-24.978539	-130.165424
0.857949	-24.540535	-128.370037
0.858555	-23.952479	-126.232762
0.859160	-23.377181	-124.110941
0.859766	-22.660336	-121.351436
0.860371	-22.004848	-118.479684
0.860977	-21.297116	-115.459628
0.861582	-20.501297	-112.143503
0.862187	-19.657486	-108.553543
0.862793	-18.855592	-104.764306
0.863398	-17.957713	-100.832458
0.864004	-17.020348	-96.642499
0.864609	-16.030737	-92.216120
0.865215	-15.101269	-87.553320
0.865820	-14.033292	-82.774207
0.866426	-12.949520	-77.948190
0.867031	-11.801961	-72.693525
0.867637	-10.654402	-67.485493
0.868242	-9.549975	-62.158980
0.868848	-8.372649	-56.309197
0.869453	-7.212940	-50.638898
0.870059	-5.976687	-44.990018
0.870664	-4.809688	-39.179548
0.871270	-3.567360	-33.202065
0.871875	-2.297086	-27.150022
0.872480	-1.079058	-21.071410
0.873086	0.115886	-14.976801
0.873691	1.390411	-8.851555
0.874297	2.593860	-2.707059
0.874902	3.874461	3.344983
0.875508	4.932718	9.618534
0.876113	6.189018	15.821864
0.876719	7.490881	21.652127
0.877324	8.646338	27.838918
0.877930	9.806047	33.946541
0.878535	10.991878	39.835637
0.879141	12.117567	45.691928
0.879746	13.221386	51.435972
0.880352	14.241979	57.053673
0.880957	15.296591	62.584614
0.881563	16.350596	68.007376
0.882168	17.309224	73.299728
0.882773	18.207710	78.365148
0.883379	19.157833	83.132602
0.883984	19.968232	87.916595
0.884590	20.791996	92.665612
0.885195	21.580525	96.900307
0.885801	22.318024	101.064780
0.886406	23.033654	105.124328
0.887012	23.652084	108.932814
0.887617	24.285702	112.428423
0.888223	24.809971	115.682731
0.888828	25.297790	118.773551
0.889434	25.755841	121.546613
0.890039	26.108796	124.056956
0.890645	26.393712	126.348229
0.891250	26.649467	128.447818
0.891855	26.877278	130.120656
0.892461	27.020040	131.536740
0.893066	27.066209	132.926524
0.893672	27.148221	133.766739
0.894277	27.113594	134.380294
0.894883	27.047377	134.861811
0.895488	26.962935	134.933388
0.896094	26.747882	134.779118
0.896699	26.542548	134.299228
0.897305	26.215716	133.576410
0.897910	25.933230	132.586534
0.898516	25.452094	131.315502
0.899121	24.997080	129.636157
0.899727	24.466128	127.820436
0.900332	23.916952	125.822790
0.900937	23.291232	123.264730
0.901543	22.638174	120.834911
0.902148	21.967499	118.133426
0.902754	21.195980	114.889421
0.903359	20.426891	111.553233
0.903965	19.572145	108.054100
0.904570	18.674874	104.240733
0.905176	17.773958	100.179016
0.905781	16.856640	95.999360
0.906387	15.848805	91.609040
0.906992	14.819707	87.030560
0.907598	13.780282	82.166856
0.908203	12.660668	77.169217
0.908809	11.564746	72.151515
0.909414	10.413542	66.703538
0.910020	9.257478	61.216791
0.910625	8.090479	55.919017
0.911230	6.904648	50.251971
0.911836	5.701807	44.447195
0.912441	4.444291	38.565690
0.913047	3.248740	32.660868
0.913652	2.025852	26.678505
0.914258	0.769551	20.608839
0.914863	-0.453945	14.488745
0.915469	-1.653141	8.391425
0.916074	-2.888180	2.252894
0.916680	-4.103171	-4.052921
0.917285	-5.293254	-10.033929
0.917891	-6.556845	-16.117151
0.918496	-7.697114	-22.377959
0.919102	-8.862290	-28.326703
0.919707	-10.012887	-34.202785
0.920312	-11.199933	-40.217684
0.920918	-12.286135	-46.108136
0.921523	-13.347430	-51.783044
0.922129	-14.448212	-57.405354
0.922734	-15.473057	-62.914333
0.923340	-16.417712	-68.347127
0.923945	-17.384845	-73.645172
0.924551	-18.430345	-78.664230
0.925156	-19.242566	-83.652380
0.925762	-20.035955	-88.512016
0.926367	-20.877337	-92.876579
0.926973	-21.624556	-97.353930
0.927578	-22.325606	-101.720120
0.928184	-23.016328	-105.527793
0.928789	-23.659666	-109.280970
0.929395	-24.183935	-112.783086
0.930000	-24.670539	-116.062338
0.930605	-25.161395	-119.127943
0.931211	-25.539865	-121.856812
0.931816	-25.930484	-124.465030
0.932422	-26.215400	-126.785856
0.933027	-26.486950	-128.712738
0.933633	-26.640647	-130.422721
0.934238	-26.633964	-132.051095
0.934844	-26.839905	-133.090858
0.935449	-26.902477	-133.906129
0.936055	-26.845373	-134.677207
0.936660	-26.801025	-135.039701
0.937266	-26.701396	-135.108567
0.937871	-26.491810	-134.898174
0.938477	-26.301057	-134.444040
0.939082	-25.983336	-133.655068
0.939688	-25.630382	-132.597953
0.940293	-25.213032	-131.171025
0.940898	-24.707596	-129.684720
0.941504	-24.232534	-127.794439
0.942109	-23.620179	-125.479578
0.942715	-23.012076	-123.237649
0.943320	-22.330466	-120.559481
0.943926	-21.638529	-117.419858
0.944531	-20.941731	-114.306535
0.945137	-20.147735	-110.944048
0.945742	-19.306961	-107.299863
0.946348	-18.446747	-103.400279
0.946953	-17.537326	-99.364047
0.947559	-16.534351	-95.065368
0.948164	-15.603668	-90.583408
0.948770	-14.577608	-85.905153
0.949375	-13.580708	-81.071274
0.949980	-12.422214	-76.179645
0.950586	-11.330545	-70.856927
0.951191	-10.197566	-65.512791
0.951797	-9.033604	-60.206884
0.952402	-7.888475	-54.402920
0.953008	-6.695961	-48.681650
0.953613	-5.479148	-42.920524
0.954219	-4.228922	-37.027632
0.954824	-3.065568	-31.078075
0.955430	-1.832352	-25.039046
0.956035	-0.630119	-18.980768
0.956641	0.605527	-12.875857
0.957246	1.842996	-6.719702
0.957852	3.119951	-0.499021
0.958457	4.341017	5.532145
0.959063	5.533531	11.736559
0.959668	6.751559	18.049423
0.960273	7.881501	23.930386
0.960879	9.143877	29.910309
0.961484	10.248911	35.999767
0.962090	11.412265	41.931972
0.962695	12.519122	47.677915
0.963301	13.577986	53.384545
0.963906	14.666011	58.991129
0.964512	15.716978	64.480046
0.965117	16.664064	69.800594
0.965723	17.583812	74.911292
0.966328	18.587394	80.030395
0.966934	19.372886	84.827130
0.967539	20.289597	89.418354
0.968145	21.104248	94.200720
0.968750	21.861795	98.461442
0.969355	22.550088	102.516381
0.969961	23.228053	106.395360
0.970566	23.807603	110.070995
0.971172	24.449726	113.526749
0.971777	24.983107	116.757740
0.972383	25.389522	119.691308
0.972988	25.848181	122.384117
0.973594	26.144639	124.823967
0.974199	26.492126	126.946330
0.974805	26.697459	129.020975
0.975410	26.895503	130.624948
0.976016	26.978730	131.824403
0.976621	27.110556	133.073203
0.977227	27.136679	134.050607
0.977832	27.081397	134.479255
0.978437	27.052237	134.837952
0.979043	26.863306	134.840664
0.979648	26.662225	134.508536
0.980254	26.431376	133.948122
0.980859	26.125199	133.139086
0.981465	25.775281	132.065704
0.982070	25.309332	130.669683
0.982676	24.832448	128.946416
0.983281	24.339769	126.931418
0.983887	23.764471	124.926452
0.984492	23.118096	122.446205
0.985098	22.436486	119.607259
0.985703	21.729361	116.906859
0.986309	20.953589	113.646315
0.986914	20.149873	110.201135
0.987520	19.269612	106.512486
0.988125	18.442203	102.680953
0.988730	17.461098	98.610832
0.989336	16.523732	94.309712
0.989941	15.535337	89.813382
0.990547	14.449742	85.124283
0.991152	13.447982	80.340290
0.991758	12.349023	75.186483
0.992363	11.211791	70.034846
0.992969	10.055120	64.818138
0.993574	8.920318	59.162480
0.994180	7.735095	53.649975
0.994785	6.559591	48.119577
0.995391	5.356142	42.265727
0.995996	4.158768	36.401845
0.996602	2.968685	30.446865
0.997207	1.703272	24.449047
0.997812	0.442718	18.355523
0.998418	-0.788068	12.225397
0.999023	-2.046798	6.003088
0.999629	-3.274547	-0.076880
1.000234	-4.481640	-6.393269
1.000840	-5.677799	-12.436635
1.001445	-6.902510	-18.408153
1.002051	-8.093201	-24.580304
1.002656	-9.291182	-30.664068
1.003262	-10.462434	-36.589224
1.003867	-11.537701	-42.427078
1.004473	-12.673110	-48.294755
1.005078	-13.765387	-54.037715
1.005684	-14.787802	-59.565674
1.006289	-15.826619	-65.063538
1.006895	-16.826557	-70.435057
1.007500	-17.780932	-75.607843
1.008105	-18.735308	-80.628256
1.008711	-19.518369	-85.451020
1.009316	-20.396808	-90.354307
1.009922	-21.103933	-94.676846
1.010527	-21.962931	-98.955192
1.011133	-22.620241	-103.209136
1.011738	-23.322506	-107.058833
1.012344	-23.868037	-110.688107
1.012949	-24.478570	-114.174497
1.013555	-24.922649	-117.370785
1.014160	-25.392243	-120.295677
1.014766	-25.810808	-122.995535
1.015371	-26.132173	-125.469546
1.015977	-26.420733	-127.713915
1.016582	-26.667984	-129.562985
1.017187	-26.787053	-131.141743
1.017793	-26.905515	-132.685526
1.018398	-26.975984	-133.696279
1.019004	-26.962619	-134.317154
1.019609	-26.929814	-134.994423
1.020215	-26.884860	-135.237351
1.020820	-26.777333	-135.273139
1.021426	-26.528867	-134.923660
1.022031	-26.234840	-134.333693
1.022637	-25.938989	-133.422985
1.023242	-25.517995	-132.267724
1.023848	-25.128590	-130.825070
1.024453	-24.611612	-129.183953
1.025059	-24.097670	-127.214233
1.025664	-23.538167	-124.785770
1.026270	-22.905764	-122.426716
1.026875	-22.175555	-119.711403
1.027480	-21.494552	-116.516471
1.028086	-20.698126	-113.263248
1.028691	-19.837304	-109.753269
1.029297	-19.004428	-106.010666
1.029902	-18.116877	-102.101321
1.030508	-17.195914	-97.991886
1.031113	-16.232426	-93.623256
1.031719	-15.227021	-89.033931
1.032324	-14.137174	-84.226892
1.032930	-13.077702	-79.392199
1.033535	-11.978135	-74.421131
1.034141	-10.885858	-68.955802
1.034746	-9.727972	-63.639320
1.035352	-8.516018	-58.221710
1.035957	-7.344767	-52.386296
1.036563	-6.219077	-46.677768
1.037168	-4.897775	-40.860249
1.037773	-3.691289	-34.954614
1.038379	-2.549805	-28.958965
1.038984	-1.385843	-22.898247
1.039590	-0.104028	-16.815025
1.040195	1.175358	-10.714723
1.040801	2.438949	-4.526576
1.041406	3.697072	1.658046
1.042012	4.913278	7.701413
1.042617	6.178084	13.996925
1.043223	7.307418	20.129491
1.043828	8.467734	25.980088
1.044434	9.683333	32.115908
1.045039	10.823602	38.085528
1.045645	11.985741	43.997128
1.046250	13.096242	49.748222
1.046855	14.148425	55.424757
1.047461	15.196962	61.003145
1.048066	16.201759	66.398523
1.048672	17.117255	71.601946
1.049277	18.074061	76.813773
1.049883	18.954322	81.744986
1.050488	19.869210	86.395857
1.051094	20.714236	91.188797
1.051699	21.422576	95.729320
1.052305	22.188020	99.782361
1.052910	22.880565	103.795818
1.053516	23.551848	107.677237
1.054121	24.165418	111.272077
1.054727	24.749221	114.655983
1.055332	25.232788	117.750056
1.055937	25.656212	120.607438
1.056543	26.018887	123.147604
1.057148	26.329317	125.535398
1.057754	26.658580	127.552293
1.058359	26.834146	129.552921
1.058965	26.998170	131.022688
1.059570	27.099621	132.184727
1.060176	27.180418	133.393943
1.060781	27.153689	134.090733
1.061387	27.119061	134.527244
1.061992	27.019432	134.726249
1.062598	26.846296	134.687478
1.063203	26.599045	134.245545
1.063809	26.288007	133.543333
1.064414	25.985475	132.625305
1.065020	25.537143	131.431272
1.065625	25.121009	129.931140
1.066230	24.593703	128.078275
1.066836	24.068219	126.164407
1.067441	23.472873	123.853612
1.068047	22.831358	121.196049
1.068652	22.126056	118.614130
1.069258	21.415893	115.611155
1.069863	20.623112	112.305062
1.070469	19.824863	108.808368
1.071074	18.985911	105.099113
1.071680	18.048546	101.121174
1.072285	17.114825	96.906543
1.072891	16.103345	92.572345
1.073496	15.103408	88.034263
1.074102	14.038468	83.286058
1.074707	13.017268	78.317430
1.075312	11.853914	73.228422
1.075918	10.754955	68.096305
1.076523	9.556974	62.527136
1.077129	8.455584	57.061265
1.077734	7.282510	51.575059
1.078340	6.050509	45.842673
1.078945	4.856781	40.047385
1.079551	3.696464	34.106775
1.080156	2.460818	28.129021
1.080762	1.289567	22.126866
1.081367	-0.018978	16.027377
1.081973	-1.207239	9.883423
1.082578	-2.456858	3.767395
1.083184	-3.711336	-2.490159
1.083789	-4.866185	-8.670986
1.084395	-6.085428	-14.606987
1.085000	-7.296774	-20.804081
1.085605	-8.467418	-26.961048
1.086211	-9.622875	-32.841469
1.086816	-10.802631	-38.777199
1.087422	-11.875468	-44.701541
1.088027	-12.976250	-50.471072
1.088633	-14.003525	-56.053798
1.089238	-15.087904	-61.650893
1.089844	-16.102422	-67.079620
1.090449	-16.973571	-72.427823
1.091055	-17.971078	-77.498123
1.091660	-18.884751	-82.429337
1.092266	-19.737675	-87.438634
1.092871	-20.509802	-91.937675
1.093477	-21.330528	-96.279463
1.094082	-22.047373	-100.668699
1.094688	-22.790340	-104.704117
1.095293	-23.323114	-108.439942
1.095898	-23.890514	-112.018244
1.096504	-24.469458	-115.421942
1.097109	-24.898349	-118.495681
1.097715	-25.431123	-121.336795
1.098320	-25.801695	-123.971312
1.098926	-26.112733	-126.356395
1.099531	-26.349049	-128.421822
1.100137	-26.583542	-130.181962
1.100742	-26.708079	-131.856156
1.101348	-26.835045	-133.097636
1.101953	-26.879392	-133.892302
1.102559	-26.832008	-134.677207
1.103164	-26.751818	-135.158182
1.103770	-26.682564	-135.307572
1.104375	-26.556205	-135.206443
1.104980	-26.310169	-134.759087
1.105586	-26.029506	-134.075311
1.106191	-25.734263	-133.037175
1.106797	-25.337569	-131.760178
1.107402	-24.862507	-130.264113
1.108008	-24.368613	-128.547352
1.108613	-23.851635	-126.357479
1.109219	-23.209512	-124.038822
1.109824	-22.502995	-121.605208
1.110430	-21.904612	-118.586507
1.111035	-21.159215	-115.456103
1.111641	-20.424145	-112.165736
1.112246	-19.573044	-108.553272
1.112852	-18.713438	-104.750750
1.113457	-17.808269	-100.758170
1.114062	-16.847819	-96.520764
1.114668	-15.872789	-92.093300
1.115273	-14.886823	-87.450835
1.115879	-13.821276	-82.642169
1.116484	-12.742972	-77.784160
1.117090	-11.609993	-72.589142
1.117695	-10.531688	-67.138996
1.118301	-9.382914	-61.891652
1.118906	-8.163063	-56.212406
1.119512	-7.026439	-50.432030
1.120117	-5.784718	-44.712658
1.120723	-4.561830	-38.881311
1.121328	-3.385718	-32.918197
1.121934	-2.207177	-26.892454
1.122539	-0.965456	-20.813570
1.123145	0.256217	-14.767493
1.123750	1.533780	-8.610796
1.124355	2.752416	-2.387403
1.124961	3.958902	3.690125
1.125566	5.193333	9.808593
1.126172	6.420474	16.148840
1.126777	7.655513	22.075894
1.127383	8.812184	27.981529
1.127988	10.009558	34.156120
1.128594	11.180202	40.108388
1.129199	12.313788	45.998298
1.129805	13.384803	51.687847
1.130410	14.436378	57.311513
1.131016	15.456970	62.854925
1.131621	16.473917	68.245966
1.132227	17.459275	73.436374
1.132832	18.384491	78.530263
1.133438	19.303024	83.364142
1.134043	20.129825	88.042125
1.134648	20.943869	92.760777
1.135254	21.726324	97.189054
1.135859	22.442561	101.177025
1.136465	23.181883	105.147102
1.137070	23.805173	108.986226
1.137676	24.393836	112.486986
1.138281	24.918713	115.725840
1.138887	25.388914	118.748337
1.139492	25.823273	121.509469
1.140098	26.188986	124.015202
1.140703	26.502453	126.235170
1.141309	26.733302	128.302495
1.141914	26.956253	130.128519
1.142520	27.084434	131.391417
1.143125	27.193783	132.623407
1.143730	27.264253	133.697874
1.144336	27.235700	134.276182
1.144941	27.158549	134.582282
1.145547	27.060742	134.728418
1.146152	26.860268	134.572521
1.146758	26.603298	133.988248
1.147363	26.310485	133.283866
1.147969	25.945988	132.245459
1.148574	25.545648	130.973343
1.149180	25.070586	129.285593
1.149785	24.582160	127.374436
1.150391	23.987422	125.339646
1.150996	23.367777	122.907116
1.151602	22.732944	120.212952
1.152207	21.994837	117.526921
1.152813	21.193550	114.392721
1.153418	20.425068	110.969231
1.154023	19.601304	107.442985
1.154629	18.759923	103.658900
1.155234	17.841390	99.596912
1.155840	16.878509	95.346763
1.156445	15.890114	90.910081
1.157051	14.871344	86.313977
1.157656	13.804582	81.544083
1.158262	12.708053	76.416847
1.158867	11.622458	71.346004
1.159473	10.460319	66.134990
1.160078	9.274488	60.488821
1.160684	8.133612	55.033524
1.161289	6.976333	49.498787
1.161895	5.719424	43.718412
1.162500	4.479526	37.768855
1.163105	3.259068	31.869727
1.163711	2.041039	25.909595
1.164316	0.799318	19.810649
1.164922	-0.449085	13.697061
1.165527	-1.645244	7.529791
1.166133	-2.932527	1.456330
1.166738	-4.131723	-4.825355
1.167344	-5.301759	-11.010520
1.167949	-6.607267	-16.914528
1.168555	-7.768798	-23.141175
1.169160	-8.917573	-29.219787
1.169766	-10.108264	-35.107799
1.170371	-11.242458	-41.052205
1.170977	-12.437402	-46.952689
1.171582	-13.405749	-52.652540
1.172187	-14.511999	-58.253160
1.172793	-15.457262	-63.706288
1.173398	-16.447479	-69.125526
1.174004	-17.426155	-74.408117
1.174609	-18.358053	-79.451305
1.175215	-19.069430	-84.305790
1.175820	-20.091845	-89.242426
1.176426	-20.873084	-93.666636
1.177031	-21.676193	-97.982668
1.177637	-22.400328	-102.377326
1.178242	-23.096518	-106.192862
1.178848	-23.671209	-109.873649
1.179453	-24.203982	-113.351363
1.180059	-24.774420	-116.687822
1.180664	-25.187517	-119.662058
1.181270	-25.712393	-122.415057
1.181875	-25.920764	-124.936787
1.182480	-26.334469	-127.263306
1.183086	-26.496063	-129.218386
1.183691	-26.674666	-130.858689
1.184297	-26.792520	-132.482454
1.184902	-26.892150	-133.450640
1.185508	-26.917665	-134.250729
1.186113	-26.835045	-135.038074
1.186719	-26.737238	-135.294558
1.187324	-26.693499	-135.365864
1.187930	-26.551952	-135.163605
1.188535	-26.236055	-134.637894
1.189141	-25.928662	-133.814760
1.189746	-25.584819	-132.696371
1.190352	-25.050223	-131.346985
1.190957	-24.555722	-129.740572
1.191563	-24.206412	-127.838362
1.192168	-23.553962	-125.596433
1.192773	-22.934924	-123.287807
1.193379	-22.260604	-120.546467
1.193984	-21.624556	-117.462967
1.194590	-20.795932	-114.308162
1.195195	-19.996468	-110.887926
1.195801	-19.152657	-107.182195
1.196406	-18.332538	-103.326533
1.197012	-17.378770	-99.275932
1.197617	-16.462667	-94.988368
1.198223	-15.443897	-90.481736
1.198828	-14.399612	-85.713740
1.199434	-13.357150	-80.912666
1.200039	-12.308005	-75.931837
1.200645	-11.136754	-70.599359
1.201250	-10.074244	-65.308092
1.201855	-8.815513	-59.901597
1.202461	-7.666132	-54.096007
1.203066	-6.449926	-48.379346
1.203672	-5.256197	-42.634759
1.204277	-4.055178	-36.724244
1.204883	-2.855982	-30.766010
1.205488	-1.637346	-24.718848
1.206094	-0.387728	-18.619901
1.206699	0.853993	-12.533155
1.207305	2.072021	-6.392726
1.207910	3.304630	-0.195632
1.208516	4.504433	5.833093
1.209121	5.744939	12.123725
1.209727	6.959323	18.293164
1.210332	8.201651	24.152979
1.210937	9.349818	30.266567
1.211543	10.417187	36.317525
1.212148	11.582364	42.214484
1.212754	12.636976	47.946057
1.213359	13.726215	53.682782
1.213965	14.779005	59.270930
1.214570	15.854272	64.763371
1.215176	16.777058	70.042708
1.215781	17.746013	75.227694
1.216387	18.634779	80.257868
1.216992	19.553312	84.954017
1.217598	20.369179	89.735027
1.218203	21.185045	94.377493
1.218809	21.914647	98.497501
1.219414	22.690419	102.559218
1.220020	23.346514	106.493778
1.220625	23.974057	110.228248
1.221230	24.573655	113.623540
1.221836	25.034744	116.755571
1.222441	25.481861	119.694833
1.223047	25.876733	122.366765
1.223652	26.230903	124.756728
1.224258	26.537688	126.983203
1.224863	26.768536	128.938824
1.225469	26.914943	130.492910
1.226074	27.072284	131.719478
1.226680	27.121491	133.030636
1.227285	27.167053	133.779482
1.227891	27.126959	134.262897
1.228496	27.034012	134.625933
1.229102	26.871203	134.578486
1.229707	26.654935	134.238225
1.230312	26.431376	133.682420
1.230918	26.157396	132.800722
1.231523	25.768599	131.688570
1.232129	25.383447	130.278180
1.232734	24.822121	128.477099
1.233340	24.344629	126.604984
1.233945	23.709797	124.439783
1.234551	23.110806	121.811773
1.235156	22.456533	119.272692
1.235762	21.752446	116.426426
1.236367	20.954197	113.095661
1.236973	20.099451	109.662953
1.237578	19.272042	106.014701
1.238184	18.414258	102.135451
1.238789	17.515772	97.994837
1.239395	16.504900	93.733843
